{"data":[{"rt":1950.7149999844842,"stimulus":"<DIV align='left'><div>&nbsp;</div><div>Please consider this information carefully before deciding whether to participate in this research.</div><div>&nbsp;</div><div>The purpose of this research is to examine which factors influence social judgment and decision-</div><div>making. You will be asked to make judgements about individuals and actions in social scenarios.</div><div>We are simply interested in your judgement. The study will take less than 1 hour to complete,</div><div>and you will receive less than $20 on Amazon Mechanical Turk. Your compensation and time</div><div>commitment are specified in the study description. There are no anticipated risks associated with</div><div>participating in this study. The effects of participating should be comparable to those you would</div><div>ordinarily experience from viewing a computer monitor and using a mouse or keyboard for a</div><div>similar amount of time. At the end of the study, we will provide an explanation of the questions</div><div>that motivate this line of research and will describe the potential implications.</div><div>&nbsp;</div><div>Your participation in this study is completely voluntary and you may refuse to participate or you</div><div>may choose to withdraw at any time without penalty or loss of benefits to you which are</div><div>otherwise entitled. Your participation in this study will remain confidential. No personally</div><div>identifiable information will be associated with your data. Also, all analyses of the data will be</div><div>averaged across all the participants, so your individual responses will never be specifically</div><div>analyzed.</div><div>&nbsp;</div><div>If you have questions or concerns about your participation or payment, or want to request a</div><div>summary of research findings, please contact Dr. Jonathan Phillips at</div><div><a href=mailto:Jonathan.S.Phillips@dartmouth.edu>Jonathan.S.Phillips@dartmouth.edu</a>.</div><div>&nbsp;</div><div>Please save a copy of this form for your records.</div><div>&nbsp;</div></DIV><div>Agreement:</div><DIV align='left'><div>The nature and purpose of this research have been sufficiently explained and I agree to</div><div>participate in this study. I understand that I am free to withdraw at any time without incurring</div><div>any penalty. Please consent by clicking the button below to continue. Otherwise, please exit the</div><div>study at any time.</div><div>&nbsp;</div></DIV>","button_pressed":"0","trial_type":"html-button-response","trial_index":0,"time_elapsed":1957,"internal_node_id":"0.0-0.0","turk_code":"8dq0onwoa7eg"},{"rt":661.3050000160001,"stimulus":"<div class='center-content'><br><br><br><br>Welcome to the HIT. Press any key to begin.","key_press":32,"trial_type":"html-keyboard-response","trial_index":1,"time_elapsed":2621,"internal_node_id":"0.0-1.0","turk_code":"8dq0onwoa7eg"},{"rt":353940.5099999858,"responses":"{\"subject_id\":\"testID\"}","trial_type":"survey-text","trial_index":2,"time_elapsed":703279,"internal_node_id":"0.0-2.0","turk_code":"8dq0onwoa7eg"},{"rt":810.8549999888055,"stimulus":"In this experiment, you will be asked to consider different animals, and decide how well words or phrases describe each animal. <br><br> Press any key to begin.","key_press":32,"trial_type":"html-keyboard-response","trial_index":3,"time_elapsed":704091,"internal_node_id":"0.0-3.0","turk_code":"8dq0onwoa7eg"},{"rt":29792.100000020582,"responses":"{\"leopard, social\":3,\"leopard, large\":3,\"leopard, cute\":3,\"leopard, weird\":3,\"leopard, heavy\":3,\"leopard, patterned\":3,\"leopard, rare\":3,\"leopard, exotic\":3,\"leopard, beautiful\":3,\"leopard, graceful\":3,\"leopard, aggressive\":3,\"leopard, loud\":3,\"leopard, furry\":3,\"leopard, smart\":3,\"leopard, scary\":3,\"leopard, colorful\":3,\"leopard, wild\":3,\"leopard, active\":3,\"leopard, dangerous\":3,\"leopard, fast\":3,\"leopard, tall\":3}","question_order":"[0,1,2,3,4,5,6,7,8,9,10,11,12,13,14,15,16,17,18,19,20]","trial_type":"survey-likert","trial_index":4,"time_elapsed":733893,"internal_node_id":"0.0-4.0","turk_code":"8dq0onwoa7eg"},{"rt":9672.139999980573,"responses":"{\"leopard, awake\":\"day\",\"leopard, diet\":\"herbivore\",\"leopard, type\":\"reptile\",\"leopard, habitat\":\"tropics\",\"leopard, lifespan\":\"medium\"}","question_order":"[0,1,2,3,4]","trial_type":"survey-multi-choice","trial_index":5,"time_elapsed":743570,"internal_node_id":"0.0-5.0","turk_code":"8dq0onwoa7eg"},{"rt":56812.74000002304,"responses":"{\"eagle, social\":2,\"eagle, large\":2,\"eagle, cute\":2,\"eagle, weird\":2,\"eagle, heavy\":2,\"eagle, patterned\":2,\"eagle, rare\":2,\"eagle, exotic\":2,\"eagle, beautiful\":2,\"eagle, graceful\":2,\"eagle, aggressive\":2,\"eagle, loud\":2,\"eagle, furry\":2,\"eagle, smart\":2,\"eagle, scary\":2,\"eagle, colorful\":2,\"eagle, wild\":2,\"eagle, active\":2,\"eagle, dangerous\":2,\"eagle, fast\":2,\"eagle, tall\":2}","question_order":"[0,1,2,3,4,5,6,7,8,9,10,11,12,13,14,15,16,17,18,19,20]","trial_type":"survey-likert","trial_index":6,"time_elapsed":800392,"internal_node_id":"0.0-6.0","turk_code":"8dq0onwoa7eg"},{"rt":7771.0450000013225,"responses":"{\"eagle, awake\":\"day\",\"eagle, diet\":\"omnivore\",\"eagle, type\":\"bird\",\"eagle, habitat\":\"water\",\"eagle, lifespan\":\"medium\"}","question_order":"[0,1,2,3,4]","trial_type":"survey-multi-choice","trial_index":7,"time_elapsed":808167,"internal_node_id":"0.0-7.0","turk_code":"8dq0onwoa7eg"},{"rt":18839.150000014342,"responses":"{\"Q0\":\"21\",\"Q1\":\"english\",\"Q2\":\"american\",\"Q3\":\"usa\"}","trial_type":"survey-text","trial_index":8,"time_elapsed":827015,"internal_node_id":"0.0-8.0","turk_code":"8dq0onwoa7eg"},{"rt":4446.074999985285,"responses":"{\"Q0\":\"Other\",\"Q1\":\"No\",\"Q2\":\"PhD\"}","question_order":"[0,1,2]","trial_type":"survey-multi-choice","trial_index":9,"time_elapsed":831473,"internal_node_id":"0.0-9.0","turk_code":"8dq0onwoa7eg"}]}